<?xml version="1.0" encoding="UTF-8"?>
<!--  lab report example: a CBC  -->
<DiagnosticOrder xmlns="http://hl7.org/fhir" xmlns:xsi="http://www.w3.org/2001/XMLSchema-instance" xsi:schemaLocation="http://hl7.org/fhir file:///C:/Users/Eric/Documents/HL7/FHIR/BUILD_EDIT_FILES/schema/diagnosticorder.xsd">
	<id value="example"/>
	<contained>
		<!--  remove text element and let build render it..
		<text>
		<status value="generated"/>
		<div xmlns="http://www.w3.org/1999/xhtml"> 
        Example Diagnostic Order
        </div>
	</text>
	 -->
		<Observation>
			<id value="fasting"/>
			<!--  the mandatory quality flag:  -->
			<status value="final"/>
			<code>
				<coding>
					<system value="http://loinc.org"/>
					<code value="49541-6"/>
					<display value="Fasting status - Reported"/>
				</coding>
			</code>
			<subject>
				<reference value="Patient/example"/>
			</subject>
			<valueCodeableConcept>
				<coding>
					<system value="http://hl7.org/fhir/v2/0136"/>
					<code value="Y"/>
					<display value="Yes"/>
				</coding>
			</valueCodeableConcept>
		</Observation>
	</contained>
	<subject>
		<reference value="Patient/example"/>
	</subject>
	<orderer>
		<reference value="Practitioner/example"/>
	</orderer>
	<identifier>
		<type>
			<coding>
				<system value="http://hl7.org/fhir/identifier-type"/>
				<code value="PLAC"/>
			</coding>
			<text value="Placer"/>
		</type>
		<system value="urn:oid:1.3.4.5.6.7"/>
		<value value="2345234234234"/>
	</identifier>
	<encounter>
		<reference value="Encounter/example"/>
	</encounter>
	<reason>
		<coding>
			<system value="http://hl7.org/fhir/sid/icd-9"/>
			<code value="V173"/>
			<display value="Fam hx-ischem heart dis"/>
		</coding>
	</reason>
	<supportingInformation>
		<reference value="#fasting"/>
	</supportingInformation>
	<status value="received"/>
	<event>
		<status value="requested"/>
		<dateTime value="2013-05-02T16:16:00-07:00"/>
		<actor>
			<reference value="Practitioner/example"/>
		</actor>
	</event>
	<item>
		<code>
			<coding>
				<system value="http://acme.org/tests"/>
				<code value="LIPID"/>
			</coding>
			<text value="Lipid Panel"/>
		</code>
		<specimen>
			<reference value="Specimen/101"/>
		</specimen>
	</item>
	<note>
		<text value="patient is afraid of needles"/>
	</note>
</DiagnosticOrder>
