<?xml version="1.0" encoding="UTF-8"?>

<Parameters xmlns="http://hl7.org/fhir">
  <id value="guidance-operation-request-example-v2"/>
<!--  This example demonstrates the request for a guidance operation using the GuidanceRequest proposed resource.  -->
  <parameter>
    <name value="request"/>
    <resource>
      <Basic>
        <id value="guidanceRequest1"/>
        <meta>
        <!--  TODO: Should only need to declare GuidanceRequest, but don't have derivative profile functionality tested yet  -->
          <profile value="http://hl7.org/fhir/StructureDefinition/cqif-knowledgerequest"/>
          <profile value="http://hl7.org/fhir/StructureDefinition/cqif-guidancerequest"/>
        </meta>
        <extension url="http://hl7.org/fhir/StructureDefinition/cqif-basic-guidance-initiatingOrganization">
          <valueReference>
            <reference value="Organization/1"/>
          </valueReference>
        </extension>
        <extension url="http://hl7.org/fhir/StructureDefinition/cqif-basic-guidance-initiatingPerson">
          <valueReference>
            <reference value="Practitioner/example"/>
          </valueReference>
        </extension>
        <extension url="http://hl7.org/fhir/StructureDefinition/cqif-basic-guidance-systemUserType">
          <valueCoding>
            <system value="TBD"/>
            <code value="provider"/>
          </valueCoding>
        </extension>
        <extension url="http://hl7.org/fhir/StructureDefinition/cqif-basic-guidance-systemUserLanguage">
          <valueCoding>
            <system value="TBD"/>
            <code value="en-US"/>
          </valueCoding>
        </extension>
        <extension url="http://hl7.org/fhir/StructureDefinition/cqif-basic-guidance-receivingOrganization">
          <valueReference>
            <reference value="Organization/1"/>
          </valueReference>
        </extension>
        <extension url="http://hl7.org/fhir/StructureDefinition/cqif-basic-guidance-receivingPerson">
          <valueReference>
            <reference value="Practitioner/example"/>
          </valueReference>
        </extension>
        <extension url="http://hl7.org/fhir/StructureDefinition/cqif-basic-guidance-recipientType">
          <valueCoding>
            <system value="TBD"/>
            <code value="provider"/>
          </valueCoding>
        </extension>
        <extension url="http://hl7.org/fhir/StructureDefinition/cqif-basic-guidance-recipientLanguage">
          <valueCoding>
            <system value="TBD"/>
            <code value="en-US"/>
          </valueCoding>
        </extension>
        <extension url="http://hl7.org/fhir/StructureDefinition/cqif-basic-guidance-encounterClass">
          <valueCoding>
            <system value="http://hl7.org/fhir/encounter-class"/>
            <code value="inpatient"/>
          </valueCoding>
        </extension>
      <!--  Server-provided module id for IHE Guideline Appropriate Ordering decision support  -->
        <modifierExtension url="http://hl7.org/fhir/StructureDefinition/cqif-basic-module">
          <valueReference>
            <reference value="Basic/guideline-appropriate-ordering"/>
          </valueReference>
        </modifierExtension>
        <code>
          <coding>
            <code value="request"/>
          </coding>
        </code>
      </Basic>
    </resource>
  </parameter>
  <parameter>
    <name value="inputResource"/>
    <resource>
      <Patient>
        <id value="example"/>
        <meta>
          <profile value="http://hl7.org/fhir/StructureDefinition/qicore-patient"/>
        <!--  TODO: Profile URL for the IHE GAO patient profile  -->
        <!-- profile value="http://hl7.org/fhir/StructureDefinition/patient-gao-gao-patient"/ -->
        </meta>
        <text>
          <status value="generated"/>
          <div xmlns="http://www.w3.org/1999/xhtml">
            
          </div>
        </text>
      <!--  MRN assigned by ACME healthcare on 6-May 2001  -->
        <identifier>
          <use value="usual"/>
          <type>
            <coding>
              <system value="http://hl7.org/fhir/v2/0203"/>
              <code value="MRN"/>
            </coding>
          </type>
          <system value="urn:oid:1.2.36.146.595.217.0.1"/>
          <value value="12345"/>
          <period>
            <start value="2001-05-06"/>
          </period>
          <assigner>
            <display value="Acme Healthcare"/>
          </assigner>
        </identifier>
        <active value="true"/>
      <!--  Peter James Chalmers, but called "Jim"  -->
        <name>
          <use value="official"/>
          <family value="Chalmers"/>
          <given value="Peter"/>
          <given value="James"/>
        </name>
        <name>
          <use value="usual"/>
          <given value="Jim"/>
        </name>
        <telecom>
          <use value="home"/>
        <!--  home communication details aren't known  -->
        </telecom>
        <telecom>
          <system value="phone"/>
          <value value="(03) 5555 6473"/>
          <use value="work"/>
        </telecom>
      <!--  use FHIR code system for male / female  -->
        <gender value="male"/>
        <birthDate value="1974-12-25">
          <extension url="http://hl7.org/fhir/StructureDefinition/patient-birthTime">
            <valueDateTime value="1974-12-25T14:35:45-05:00"/>
          </extension>
        </birthDate>
        <deceasedBoolean value="false"/>
        <address>
          <use value="home"/>
          <line value="534 Erewhon St"/>
          <city value="PleasantVille"/>
          <state value="Vic"/>
          <postalCode value="3999"/>
        </address>
        <contact>
          <relationship>
            <coding>
              <system value="http://hl7.org/fhir/patient-contact-relationship"/>
              <code value="partner"/>
            </coding>
          </relationship>
          <name>
            <family value="du">
            <!--  the "du" part is a family name prefix (VV in iso 21090)  -->
              <extension url="http://hl7.org/fhir/StructureDefinition/iso21090-EN-qualifier">
                <valueCode value="VV"/>
              </extension>
            </family>
            <family value="Marché"/>
            <given value="Bénédicte"/>
          </name>
          <telecom>
            <system value="phone"/>
            <value value="+33 (237) 998327"/>
          </telecom>
        </contact>
        <managingOrganization>
          <reference value="Organization/1"/>
        </managingOrganization>
      </Patient>
    </resource>
  </parameter>
  <parameter>
    <name value="inputResource"/>
    <resource>
      <Order>
        <id value="order1"/>
        <text>
          <status value="generated"/>
          <div xmlns="http://www.w3.org/1999/xhtml">
            
          </div>
        </text>
        <contained>
          <DiagnosticOrder>
            <id value="diagnosticOrder1"/>
            <subject>
              <reference value="Patient/example"/>
            </subject>
            <item>
              <code>
                <coding>
                <!--  TODO: This will need to use the ACR Commons code  -->
                  <system value="http://www.ama-assn.org/go/cpt"/>
                  <code value="70450"/>
                  <display value="CT, head, wo iv contrast"/>
                </coding>
              </code>
            </item>
          </DiagnosticOrder>
        </contained>
        <date value="2012-12-28T09:03:04+11:00"/>
        <subject>
          <reference value="Patient/example"/>
        </subject>
        <source>
          <reference value="Practitioner/example"/>
        </source>
        <reasonCodeableConcept>
          <coding>
          <!--  TODO: This will need to use the ACR Commons code  -->
            <system value="http://hl7.org/fhir/sid/icd-9"/>
            <code value="70450"/>
            <display value="Headache, Chronic, no new features"/>
          </coding>
        </reasonCodeableConcept>
        <detail>
          <reference value="#diagnosticOrder1"/>
        </detail>
      </Order>
    </resource>
  </parameter>
</Parameters>