<?xml version="1.0" encoding="UTF-8"?>
<Basic xmlns="http://hl7.org/fhir"> <!-- xmlns:xsi="http://www.w3.org/2001/XMLSchema-instance" xsi:schemaLocation="http://hl7.org/fhir ../../schema/fhir-single.xsd">-->
<!--     This example demonstrates the GuidanceArtifact structure used to represent an Order Set     -->
  <id value="guidanceartifact-orderset-example"/>
  <meta>
  <!--     TODO: Should be able to claim conformance with only the guidance artifact, need derived profiles to work first     -->
    <profile value="http://hl7.org/fhir/StructureDefinition/cqif-guidanceartifact"/>
  </meta>
  <text>
    <status value="generated"/>
    <div xmlns="http://www.w3.org/1999/xhtml">Respiratory Protocol</div>
  </text>
  <contained>
    <Organization>
      <id value="organization1"/>
      <name value="Zynx Health"/>
      <telecom>
        <system value="phone"/>
        <value value="310-825-3333"/>
        <use value="work"/>
      </telecom>
      <address>
        <city value="Los Angeles"/>
        <state value="CA"/>
        <postalCode value="90024"/>
        <country value="USA"/>
      </address>
    </Organization>
  </contained>
  <contained>
    <ProcedureRequest>
      <id value="ventilatorSettings"/>
      <subject>
		  <display value="placeholder"/>
      </subject>
      <code>
	    <!-- Validation Failure: term server connect denied?
        <coding>
          <system value="http://snomed.info/sct"/>
          <code value="410210009"/>
          <display value="Ventilator care management (procedure)"/>
        </coding>
        -->
        <text value="Ventilator care management (procedure)"/>
      </code>
    </ProcedureRequest>
  </contained>
  <contained>
    <ProcedureRequest>
      <id value="pulseOximetry"/>
      <subject>
		  <display value="placeholder"/>
      </subject>
      <code>
        <!-- Validation Failure: term server connect denied?
        <coding>
          <system value="http://snomed.info/sct"/>
          <code value="252465000"/>
          <display value="Pulse oximetry (procedure)"/>
        </coding>
        -->
        <text value="Pulse oximetry (procedure)"/>
      </code>
    </ProcedureRequest>
  </contained>
<!--     Version     -->
  <!-- ValidationFailure: DerivedProfileElement
  <extension url="http://hl7.org/fhir/StructureDefinition/cqif-basic-moduleVersion">
    <valueString value="2.7.0"/>
  </extension>
  -->
<!--     Title     -->
  <!-- ValidationFailure: DerivedProfileElement
  <extension url="http://hl7.org/fhir/StructureDefinition/cqif-basic-title">
    <valueCode value="Respiratory Protocol"/>
  </extension>
  -->
<!--     Description     -->
  <!-- ValidationFailure: DerivedProfileElement
  <extension url="http://hl7.org/fhir/StructureDefinition/cqif-basic-description">
    <valueString value="Respiratory Protocol"/>
  </extension>
  -->
<!--     PublicationDate     -->
  <!-- ValidationFailure: DerivedProfileElement
  <extension url="http://hl7.org/fhir/StructureDefinition/cqif-basic-publicationDate">
    <valueDate value="2015-07-22"/>
  </extension>
  -->
<!--     Topic     -->
  <!-- ValidationFailure: DerivedProfileElement
  <extension url="http://hl7.org/fhir/StructureDefinition/cqif-basic-topic">
    <valueCodeableConcept>
      <coding>
        <system value="http://snomed.info/sct"/>
        <code value="53950000"/>
        <display value="Respiratory therapy (procedure)"/>
      </coding>
    </valueCodeableConcept>
  </extension>
  <extension url="http://hl7.org/fhir/StructureDefinition/cqif-basic-topic">
    <valueCodeableConcept>
      <coding>
        <system value="http://snomed.info/sct"/>
        <code value="410210009"/>
        <display value="Ventilator settings"/>
      </coding>
    </valueCodeableConcept>
  </extension>
  <extension url="http://hl7.org/fhir/StructureDefinition/cqif-basic-topic">
    <valueCodeableConcept>
      <coding>
        <system value="http://snomed.info/sct"/>
        <code value="252465000"/>
        <display value="Pulse oximetry"/>
      </coding>
    </valueCodeableConcept>
  </extension>
  <extension url="http://hl7.org/fhir/StructureDefinition/cqif-basic-topic">
    <valueCodeableConcept>
      <coding>
        <system value="http://snomed.info/sct"/>
        <code value="32564009"/>
        <display value="Blood gas, arterial"/>
      </coding>
    </valueCodeableConcept>
  </extension>
  <extension url="http://hl7.org/fhir/StructureDefinition/cqif-basic-topic">
    <valueCodeableConcept>
      <coding>
        <system value="http://snomed.info/sct"/>
        <code value="371907003"/>
        <display value="Oxygen via nasal cannula"/>
      </coding>
    </valueCodeableConcept>
  </extension>
  <extension url="http://hl7.org/fhir/StructureDefinition/cqif-basic-topic">
    <valueCodeableConcept>
      <coding>
        <system value="http://snomed.info/sct"/>
        <code value="371908008"/>
        <display value="Oxygen administration by mask (procedure)"/>
      </coding>
    </valueCodeableConcept>
  </extension>
  <extension url="http://hl7.org/fhir/StructureDefinition/cqif-basic-topic">
    <valueCodeableConcept>
      <coding>
        <system value="http://snomed.info/sct"/>
        <code value="429253002"/>
        <display value="Oxygen administration by Venturi mask (procedure)"/>
      </coding>
    </valueCodeableConcept>
  </extension>
  -->
<!--     Contributor     -->
  <!-- ValidationFailure: DerivedProfileElement
  <extension url="http://hl7.org/fhir/StructureDefinition/cqif-basic-contributor">
    <extension url="http://hl7.org/fhir/StructureDefinition/cqif-basic-contributor#type">
      <valueCode value="author"/>
    </extension>
    <extension url="http://hl7.org/fhir/StructureDefinition/cqif-basic-contributor#party">
      <valueReference>
        <reference value="#organization1"/>
        <display value="Zynx"/>
      </valueReference>
    </extension>
  </extension>
  -->
<!--     Publisher     -->
  <!-- ValidationFailure: DerivedProfileElement
  <extension url="http://hl7.org/fhir/StructureDefinition/cqif-basic-publisher">
    <valueReference>
      <reference value="#organization1"/>
    </valueReference>
  </extension>
  -->
<!--     Content     -->
  <!-- ValidationFailure: DerivedProfileElement
  <extension url="http://hl7.org/fhir/StructureDefinition/cqif-basic-content">
    <valueAttachment>
      <contentType value="application/x-elm+xml"/>
      <url value="http://elmrepository.org/respiratory-protocol-logic.elm"/>
      <title value="Respiratory Protocol Logic"/>
    </valueAttachment>
  </extension>
  -->
<!--     Actions     -->
<!--     Respiratory Order     -->
  <!-- ValidationFailure: DerivedProfileElement
  <extension url="http://hl7.org/fhir/StructureDefinition/cqif-basic-action">
    <extension url="http://hl7.org/fhir/StructureDefinition/cqif-basic-action#title">
      <valueString value="Respiratory Order"/>
    </extension>
    <extension url="http://hl7.org/fhir/StructureDefinition/cqif-basic-action#concept">
      <valueCodeableConcept>
        <coding>
          <system value="http://snomed.info/sct"/>
          <code value="53950000"/>
          <display value="Respiratory therapy (procedure)"/>
        </coding>
      </valueCodeableConcept>
    </extension>
  -->
  <!--     Ventilator Group     -->
  <!-- ValidationFailure: DerivedProfileElement
    <extension url="http://hl7.org/fhir/StructureDefinition/cqif-basic-action#actions">
      <extension url="http://hl7.org/fhir/StructureDefinition/cqif-basic-action">
  -->
      <!--     Ventilator Settings     -->
  <!-- ValidationFailure: DerivedProfileElement
        <extension url="http://hl7.org/fhir/StructureDefinition/cqif-basic-action#actions">
          <extension url="http://hl7.org/fhir/StructureDefinition/cqif-basic-action">
            <extension url="http://hl7.org/fhir/StructureDefinition/cqif-basic-action#textEquivalent">
              <valueString value="Ventilator settings"/>
            </extension>
            <extension url="http://hl7.org/fhir/StructureDefinition/cqif-basic-action#resource">
              <valueReference>
                <reference value="#ventilatorSettings"/>
              </valueReference>
            </extension>
            <extension url="http://hl7.org/fhir/StructureDefinition/cqif-basic-action#customization">
              <extension url="http://hl7.org/fhir/StructureDefinition/cqif-basic-action#customization.path">
                <valueString value="subject"/>
              </extension>
              <extension url="http://hl7.org/fhir/StructureDefinition/cqif-basic-action#customization.expression">
                <valueString value="Patient"/>
              </extension>
            </extension>
          </extension>
        </extension>
  -->
      <!--     Oxygenation assessment     -->
  <!-- ValidationFailure: DerivedProfileElement
        <extension url="http://hl7.org/fhir/StructureDefinition/cqif-basic-action#actions">
          <extension url="http://hl7.org/fhir/StructureDefinition/cqif-basic-action">
  -->
          <!--     Pulse oximetry     -->
  <!-- ValidationFailure: DerivedProfileElement
            <extension url="http://hl7.org/fhir/StructureDefinition/cqif-basic-action#actions">
              <extension url="http://hl7.org/fhir/StructureDefinition/cqif-basic-action">
                <extension url="http://hl7.org/fhir/StructureDefinition/cqif-basic-action#textEquivalent">
                  <valueString value="Pulse oximetry"/>
                </extension>
                <extension url="http://hl7.org/fhir/StructureDefinition/cqif-basic-action#resource">
                  <valueReference>
                    <reference value="#pulseOximetry"/>
                  </valueReference>
                </extension>
              </extension>
            </extension>
  -->
          <!--     Blood gas, arterial     -->
  <!-- ValidationFailure: DerivedProfileElement
            <extension url="http://hl7.org/fhir/StructureDefinition/cqif-basic-action#actions">
              <extension url="http://hl7.org/fhir/StructureDefinition/cqif-basic-action">
                <extension url="http://hl7.org/fhir/StructureDefinition/cqif-basic-action#textEquivalent">
                  <valueString value="Blood gas, arterial"/>
                </extension>
                <extension url="http://hl7.org/fhir/StructureDefinition/cqif-basic-action#resource">
                  <valueReference>
                    <reference value="#bloodGasArterial"/>
                  </valueReference>
                </extension>
              </extension>
            </extension>
          </extension>
        </extension>
      </extension>
    </extension>
  -->
  <!--     Supplemental oxygen group     -->
  <!-- ValidationFailure: DerivedProfileElement
    <extension url="http://hl7.org/fhir/StructureDefinition/cqif-basic-action#actions">
      <extension url="http://hl7.org/fhir/StructureDefinition/cqif-basic-action">
  -->
      <!--     Supplemental oxygen     -->
  <!-- ValidationFailure: DerivedProfileElement
        <extension url="http://hl7.org/fhir/StructureDefinition/cqif-basic-action#actions">
          <extension url="http://hl7.org/fhir/StructureDefinition/cqif-basic-action">
  -->
          <!--     Oxygen via nasal cannula     -->
  <!-- ValidationFailure: DerivedProfileElement
            <extension url="http://hl7.org/fhir/StructureDefinition/cqif-basic-action#actions">
              <extension url="http://hl7.org/fhir/StructureDefinition/cqif-basic-action">
                <extension url="http://hl7.org/fhir/StructureDefinition/cqif-basic-action#textEquivalent">
                  <valueString value="Oxygen via nasal cannula"/>
                </extension>
                <extension url="http://hl7.org/fhir/StructureDefinition/cqif-basic-action#resource">
                  <valueReference>
                    <reference value="#oxygenViaNasalCannula"/>
                  </valueReference>
                </extension>
              </extension>
            </extension>
  -->
          <!--     Oxygen via nonrebreather     -->
  <!-- ValidationFailure: DerivedProfileElement
            <extension url="http://hl7.org/fhir/StructureDefinition/cqif-basic-action#actions">
              <extension url="http://hl7.org/fhir/StructureDefinition/cqif-basic-action"/>
            </extension>
  -->
          <!--     Oxygen via simple face mask     -->
  <!-- ValidationFailure: DerivedProfileElement
            <extension url="http://hl7.org/fhir/StructureDefinition/cqif-basic-action#actions">
              <extension url="http://hl7.org/fhir/StructureDefinition/cqif-basic-action"/>
            </extension>
  -->
          <!--     Oxygen via venturi mask     -->
  <!-- ValidationFailure: DerivedProfileElement
            <extension url="http://hl7.org/fhir/StructureDefinition/cqif-basic-action#actions">
              <extension url="http://hl7.org/fhir/StructureDefinition/cqif-basic-action"/>
            </extension>
          </extension>
        </extension>
      </extension>
    </extension>
  </extension>
-->
<!--     Status     -->
  <modifierExtension url="http://hl7.org/fhir/StructureDefinition/cqif-basic-moduleStatus">
    <valueCode value="draft"/>
  </modifierExtension>
<!--     Evaluation Supported     -->
  <modifierExtension url="http://hl7.org/fhir/StructureDefinition/cqif-basic-evaluationSupported">
    <valueBoolean value="true"/>
  </modifierExtension>
<!--     Identifier     -->
  <identifier>
    <use value="official"/>
    <value value="respiratory-protocol"/>
  </identifier>
<!--     Code     -->
  <code>
    <coding>
      <code value="order-set"/>
    </coding>
  </code>
</Basic>