<?xml version="1.0" encoding="UTF-8"?>
<List xmlns:xsi="http://www.w3.org/2001/XMLSchema-instance" xmlns="http://hl7.org/fhir" xsi:schemaLocation="http://hl7.org/fhir ../../schema/list.xsd">
  <id value="f201"/>
  <contained>
    <FamilyMemberHistory>
      <id value="fmh-1"/>
      <!--ROB's Mother has a hernia-->
      <patient>
        <reference value="Patient/f201"/>
        <display value="Roel"/>
      </patient>
      <relationship>
        <coding>
          <system value="http://snomed.info/sct"/>
          <code value="72705000"/>
          <display value="Mother"/>
        </coding>
      </relationship>
      <deceasedBoolean value="false"/>
      <condition>
        <type>
          <coding>
            <system value="http://snomed.info/sct"/>
            <code value="39839004"/>
            <display value="Diaphragmatic hernia"/>
          </coding>
        </type>
      </condition>
    </FamilyMemberHistory>
  </contained>
  <contained>
    <FamilyMemberHistory>
      <id value="fmh-2"/>
      <!--ROB's uncle from mother's side died from cancer-->
      <patient>
        <reference value="Patient/f201"/>
        <display value="Roel"/>
      </patient>
      <relationship>
        <coding>
          <system value="http://snomed.info/sct"/>
          <code value="38048003"/>
          <display value="Uncle"/>
        </coding>
      </relationship>
      <deceasedBoolean value="true"/>
      <condition>
        <type>
          <coding>
            <system value="http://snomed.info/sct"/>
            <code value="115665000"/>
            <display value="Atopy"/>
          </coding>
        </type>
        <outcome>
          <coding>
            <system value="http://snomed.info/sct"/>
            <code value="419099009"/>
            <display value="Died"/>
          </coding>
        </outcome>
      </condition>
    </FamilyMemberHistory>
  </contained>
  <code>
    <coding>
      <system value="http://loinc.org"/>
      <code value="8670-2"/>
      <display value="History of family member diseases"/>
    </coding>
  </code>
  <subject>
    <reference value="Patient/f201"/>
    <display value="Roel"/>
  </subject>
  <status value="current"/>
  <mode value="snapshot"/>
  <note value="Both parents, both brothers and both children (twin) are still alive."/>
  <!--Other relatives-->
  <entry>
    <item>
      <reference value="#fmh-1"/>
    </item>
  </entry>
  <entry>
    <item>
      <reference value="#fmh-2"/>
    </item>
  </entry>
</List>
