<?xml version="1.0" encoding="UTF-8"?><CarePlan xmlns="http://hl7.org/fhir" xmlns:xsi="http://www.w3.org/2001/XMLSchema-instance" xsi:schemaLocation="http://hl7.org/fhir ../../schema/careplan.xsd">
  <id value="f201"/>
  <contained>
    <Goal>
      <id value="goal"/>
      <subject>
        <reference value="Patient/f201"/>
        <display value="Roel"/>
      </subject>
      <description value="Re-established renal function with at least healthy nutrients."/>
      <status value="achieved"/>
    </Goal>
  </contained>
  <subject>
    <!--It entails Roel's careplan-->
    <reference value="Patient/f201"/>
    <display value="Roel"/>
  </subject>
  <status value="draft"/>
  <!--This careplan is "ended", but was never closed in the EHR, wherefore the status is "planned"-->
  <period>
    <start value="2013-03-11"/>
    <end value="2013-03-13"/>
    <!--Period is less than nine days because the careplan requires adjustments after evaluation-->
  </period>
  <modified value="2013-03-11"/>
  <addresses>
    <reference value="Condition/f204"/>
    <display value="Roel's renal insufficiency"/>
  </addresses>
  <participant>
    <role>
      <coding>
        <system value="http://snomed.info/sct"/>
        <code value="425268008"/>
        <display value="Review of care plan"/>
      </coding>
    </role>
    <member>
      <reference value="Practitioner/f201"/>
      <display value="Dokter Bronsig"/>
    </member>
  </participant>
  <participant>
    <role>
      <coding>
        <system value="http://snomed.info/sct"/>
        <code value="229774002"/>
        <display value="Carer"/>
      </coding>
    </role>
    <member>
      <reference value="Practitioner/f204"/>
      <display value="Nurse Carla Espinosa"/>
    </member>
  </participant>
  <goal>
    <reference value="#goal"/>
  </goal>
  <activity>
    <!--Potassium supplement-->
    <detail>
      <category><coding><system value="http://hl7.org/fhir/care-plan-activity-category"/><code value="diet"/></coding></category>
      <code>
        <coding>
          <system value="http://snomed.info/sct"/>
          <code value="284093001"/>
          <display value="Potassium supplementation"/>
        </coding>
      </code>
      <status value="completed"/>
      <prohibited value="false"/>
      <scheduledString value="daily"/>
      <!--TODO Isn't <performer> redundant when considering <participant> that was defined before?-->
      <productReference>
        <reference value="Substance/f203"/>
        <display value="Potassium"/>
      </productReference>
      <dailyAmount>
        <value value="80"/>
        <unit value="mmol"/>
        <system value="http://snomed.info/sct"/>
        <code value="258718000"/>
      </dailyAmount>
    </detail>
  </activity>
  <activity>
    <!--Echo of the kidney-->
    <detail>
      <category><coding><system value="http://hl7.org/fhir/care-plan-activity-category"/><code value="observation"/></coding></category>
      <code>
        <coding>
          <system value="http://snomed.info/sct"/>
          <code value="306005"/>
          <display value="Echography of kidney"/>
        </coding>
      </code>
      <status value="completed"/>
      <prohibited value="false"/>
    </detail>
  </activity>
</CarePlan>