<?xml version="1.0" encoding="UTF-8"?><CarePlan xmlns="http://hl7.org/fhir" xmlns:xsi="http://www.w3.org/2001/XMLSchema-instance" xsi:schemaLocation="http://hl7.org/fhir ../../schema/careplan.xsd">
  <id value="f001"/>
  <contained>
    <Goal>
      <id value="goal"/>
			<subject>
				<reference value="Patient/f001"/>
				<display value="P. van de Heuvel"/>
			</subject>
      <description value="recovery surgery on heart of patient"/>
      <status value="achieved"/>
      <!-- urn:oid:2.16.840.1.113883.4.642.1.38 -->
      <note>
        <text value="goal accomplished without complications"/>
      </note>
    </Goal>
  </contained>
  <identifier>
    <use value="official"/>
    <!-- urn:oid:2.16.840.1.113883.4.642.1.36 -->
    <system value="http://www.bmc.nl/zorgportal/identifiers/careplans"/>
    <value value="CP2903"/>
  </identifier>
  <subject>
    <reference value="Patient/f001"/>
    <display value="P. van de Heuvel"/>
  </subject>
  <status value="completed"/>
  <!-- urn:oid:2.16.840.1.113883.4.642.1.36 -->
  <period>
    <start value="2011-06-26"/>
    <end value="2011-06-27"/>
  </period>
  <modified value="2011-06-27T09:30:10+01:00"/>
  <addresses>
    <reference value="Condition/f201"/>
    <!--TODO Correcte referentie-->
    <display value="?????"/>
  </addresses>
  <participant>
    <member>
      <reference value="Practitioner/f002"/>
      <display value="P. Voigt"/>
    </member>
  </participant>
  <goal>
    <reference value="#goal"/>
  </goal>
  <activity>
    <detail>
      <category><coding><system value="http://hl7.org/fhir/care-plan-activity-category"/><code value="procedure"/></coding></category>
      <!-- urn:oid:2.16.840.1.113883.4.642.1.39 -->
      <code>
        <coding>
          <system value="http://snomed.info/sct"/>
          <code value="64915003"/>
          <display value="Operation on heart"/>
        </coding>
      </code>
      <status value="completed"/>
      <prohibited value="true"/>
      <scheduledString value="2011-06-27T09:30:10+01:00"/>
      <performer>
        <reference value="Practitioner/f002"/>
        <display value="P. Voigt"/>
      </performer>
    </detail>
  </activity>
</CarePlan>