<?xml version="1.0" encoding="UTF-8"?>
<!--
This XML file includes a set of resources that test out difficult cases 
for servers to handle as part of a batch post
 -->
<Bundle xmlns="http://hl7.org/fhir" xmlns:xsi="http://www.w3.org/2001/XMLSchema-instance" xsi:schemaLocation="http://hl7.org/fhir file:///C:/work/org.hl7.fhir/build/schema/bundle.xsd">
  <id value="4b838e19-81eb-4e4e-9473-c5108d6e9856"/>
  <meta>
    <lastUpdated value="2012-11-12T18:10:00Z"/>
  </meta>
  <type value="transaction"/>
  <base value="http://hl7.org/fhir/transaction/test-case"/>
  <!-- 
	  the first entry is a simple person resource that is "local" to the server, followed by 
	  three versions of another person that comes from a domain that is considered "external". 
	  The last of those three versions is a deletion. Also, while the deletion is version 5, 
	  we do not have all versions present in this batch. The last person entry uses a urn as 
	  an id instead of a url. The server has to upsert the local person (with id 30) and reidentify
	  the other two persons (id 1 and the urn) and insert the different versions in order of the update timestamp. 
	  
	  After this: the provenance for a subset of the resources. Notice that in the batch, some references
	  to persons use id+version and some only version. The server should update the references in provenance, 
	  filling out the version specific identifiers only on references that already had a version-specific reference. 
	-->
  <entry>
    <resource>
      <Patient xmlns="http://hl7.org/fhir" xmlns:xhtml="http://www.w3.org/1999/xhtml">
        <id value="30"/>
        <text>
          <status value="generated"/>
          <xhtml:div>
            <xhtml:p>Henry Levin</xhtml:p>
          </xhtml:div>
        </text>
        <name>
          <family value="Levin"/>
          <given value="Henry"/>
        </name>
        <gender value="male"/>
        <birthDate value="1932-09-24"/>
      </Patient>
    </resource>
  </entry>
  <entry>
    <base value="http://www.someexternalsite/fhir"/>
    <resource>
      <Patient xmlns="http://hl7.org/fhir" xmlns:xhtml="http://www.w3.org/1999/xhtml">
        <id value="1"/>
        <text>
          <status value="generated"/>
          <xhtml:div>
            <xhtml:p>Henry Levin</xhtml:p>
          </xhtml:div>
        </text>
        <name>
          <family value="Levin"/>
          <given value="Henry"/>
        </name>
        <gender value="male"/>
        <birthDate value="1932-09-24"/>
      </Patient>
    </resource>
  </entry>
  <entry>
    <base value="http://www.someexternalsite/fhir"/>
    <resource>
      <Patient xmlns="http://hl7.org/fhir" xmlns:xhtml="http://www.w3.org/1999/xhtml">
        <id value="2"/>
        <meta>
          <versionId value="2"/>
        </meta>
        <text>
          <status value="generated"/>
          <xhtml:div>
            <xhtml:p>Henry Levin</xhtml:p>
          </xhtml:div>
        </text>
        <name>
          <family value="Levin"/>
          <given value="Henry"/>
        </name>
        <gender value="male"/>
        <birthDate value="1932-09-24"/>
      </Patient>
    </resource>
  </entry>
  <entry>
    <base value="urn:uuid:"/>
    <resource>
      <Patient xmlns="http://hl7.org/fhir" xmlns:xhtml="http://www.w3.org/1999/xhtml">
        <id value="5531795b-2048-4012-83f0-ad4375c3d405"/>
        <text>
          <status value="generated"/>
          <xhtml:div>
            <xhtml:p>Henry Levin</xhtml:p>
          </xhtml:div>
        </text>
        <name>
          <family value="Levin"/>
          <given value="Henry"/>
        </name>
        <gender value="male"/>
        <birthDate value="1932-09-24"/>
      </Patient>
    </resource>
  </entry>
  <entry>
    <resource>
      <Provenance xmlns="http://hl7.org/fhir">
        <id value="101"/>
        <text>
          <status value="generated"/>
          <div xmlns="http://www.w3.org/1999/xhtml">Authored on 12-Nov 2011 by Grahame Grieve</div>
        </text>
        <target>
          <reference value="http://www.someexternalsite/fhir/Patient/2/_history/2"/>
        </target>
        <recorded value="2012-11-12T18:16:00Z"/>
      </Provenance>
    </resource>
  </entry>
  <entry>
    <resource>
      <Provenance xmlns="http://hl7.org/fhir">
        <id value="102"/>
        <text>
          <status value="generated"/>
          <div xmlns="http://www.w3.org/1999/xhtml">Authored on 12-Nov 2011 by Grahame Grieve</div>
        </text>
        <target>
          <reference value="http://www.someexternalsite/fhir/Patient/1"/>
        </target>
        <!-- nominal activity: editing the standard -->
        <recorded value="2012-11-12T18:16:00Z"/>
      </Provenance>
    </resource>
  </entry>
  <entry>
    <resource>
      <Provenance xmlns="http://hl7.org/fhir">
        <id value="104"/>
        <text>
          <status value="generated"/>
          <div xmlns="http://www.w3.org/1999/xhtml">Authored on 12-Nov 2011 by Grahame Grieve</div>
        </text>
        <target>
          <reference value="urn:uuid:8f13879b-8f5c-4ed4-a1f5-bc8d8a0efe"/>
        </target>
        <!-- nominal activity: editing the standard -->
        <recorded value="2012-11-12T18:16:00Z"/>
      </Provenance>
    </resource>
  </entry>
  <entry>
    <deleted>
      <type value="Patient"/>
      <resourceId value="307"/>
      <instant value="2012-11-12T18:15:00Z"/>
    </deleted>
  </entry>
</Bundle>
